Folder: dataset

File: StrainRate3.csv
Volume Fraction,Matrix Material,Filler Material,Matrix Density (kg/m^3),Matrix Elastic Modulus (MPa),Matrix Poisson's Ratio,Matrix Yield Strength (MPa),Matrix Hardening Parameter,Temperature (K),Filler Density (kg/m^3),Filler Elastic Modulus 1,Filler Elastic Modulus 2,Filler Elastic Modulus 3,Filler Poisson 1,Filler Poisson 2,Filler Poisson 3,Filler Shear 1,Filler Shear 2,Filler Shear 3,Strain Rate
0.38,PAI,Carbon,1490,2662.56,0.38,252.049,0.545588,233,1770,220000,14000,14000,0.2,0.2,0.25,9000,9000,4600,4.04538E-07
0.38,PAI,Carbon,1490,2621.47,0.38,149.59,0.431152,273,1770,220000,14000,14000,0.2,0.2,0.25,9000,9000,4600,3.78388E-07
0.38,PAI,Carbon,1490,2542.37,0.38,106.557,0.444529,298,1770,220000,14000,14000,0.2,0.2,0.25,9000,9000,4600,3.53888E-07
0.38,PAI,Carbon,1490,2576.27,0.38,79.918,0.346129,333,1770,220000,14000,14000,0.2,0.2,0.25,9000,9000,4600,3.07138E-07
0.38,PAI,Carbon,1490,1152.54,0.38,43.0328,0.277231,393,1770,220000,14000,14000,0.2,0.2,0.25,9000,9000,4600,4.6365E-07
0.38,PAI,E-Glass,1490,2662.56,0.38,252.049,0.545588,233,2540,75000,75000,75000,0.2,0.2,0.22,30000,30000,30000,4.05413E-07
0.38,PAI,E-Glass,1490,2621.47,0.38,149.59,0.431152,273,2540,75000,75000,75000,0.2,0.2,0.22,30000,30000,30000,3.79988E-07
0.38,PAI,E-Glass,1490,2542.37,0.38,106.557,0.444529,298,2540,75000,75000,75000,0.2,0.2,0.22,30000,30000,30000,3.55263E-07
0.38,PAI,E-Glass,1490,2576.27,0.38,79.918,0.346129,333,2540,75000,75000,75000,0.2,0.2,0.22,30000,30000,30000,3.08138E-07
0.38,PAI,E-Glass,1490,1152.54,0.38,43.0328,0.277231,393,2540,75000,75000,75000,0.2,0.2,0.22,30000,30000,30000,4.62338E-07
0.38,PAI,Kevlar,1490,2662.56,0.38,252.049,0.545588,233,1470,150000,4200,4200,0.35,0.35,0.35,2900,2900,1500,4.2945E-07
0.38,PAI,Kevlar,1490,2621.47,0.38,149.59,0.431152,273,1470,150000,4200,4200,0.35,0.35,0.35,2900,2900,1500,4.02125E-07
0.38,PAI,Kevlar,1490,2542.37,0.38,106.557,0.444529,298,1470,150000,4200,4200,0.35,0.35,0.35,2900,2900,1500,3.75713E-07
0.38,PAI,Kevlar,1490,2576.27,0.38,79.918,0.346129,333,1470,150000,4200,4200,0.35,0.35,0.35,2900,2900,1500,3.26275E-07
0.38,PAI,Kevlar,1490,1152.54,0.38,43.0328,0.277231,393,1470,150000,4200,4200,0.35,0.35,0.35,2900,2900,1500,4.82875E-07
0.38,PAI,S-Glass,1490,2662.56,0.38,252.049,0.545588,233,2530,85000,85000,85000,0.35,0.35,0.35,36000,36000,36000,4.04638E-07
0.38,PAI,S-Glass,1490,2621.47,0.38,149.59,0.431152,273,2530,85000,85000,85000,0.35,0.35,0.35,36000,36000,36000,3.79313E-07
0.38,PAI,S-Glass,1490,2542.37,0.38,106.557,0.444529,298,2530,85000,85000,85000,0.35,0.35,0.35,36000,36000,36000,3.54413E-07
0.38,PAI,S-Glass,1490,2576.27,0.38,79.918,0.346129,333,2530,85000,85000,85000,0.35,0.35,0.35,36000,36000,36000,3.07613E-07
0.38,PAI,S-Glass,1490,1152.54,0.38,43.0328,0.277231,393,2530,85000,85000,85000,0.35,0.35,0.35,36000,36000,36000,4.61963E-07
0.37,PC,Carbon,1200,1186.21,0.37,89.6552,0.229998,233,1770,220000,14000,14000,0.2,0.2,0.25,9000,9000,4600,5.34863E-07
0.37,PC,Carbon,1200,1354.23,0.37,77.5862,0.232567,273,1770,220000,14000,14000,0.2,0.2,0.25,9000,9000,4600,3.9835E-07
0.37,PC,Carbon,1200,1655.17,0.37,67.2414,0.544621,298,1770,220000,14000,14000,0.2,0.2,0.25,9000,9000,4600,2.931E-07
0.37,PC,Carbon,1200,1396.55,0.37,62.069,0.346699,333,1770,220000,14000,14000,0.2,0.2,0.25,9000,9000,4600,3.07805E-07
0.37,PC,Carbon,1200,1075.86,0.37,46.5517,0.285244,393,1770,220000,14000,14000,0.2,0.2,0.25,9000,9000,4600,3.00375E-07
0.37,PC,E-Glass,1200,1186.21,0.37,89.6552,0.229998,233,2540,75000,75000,75000,0.2,0.2,0.22,30000,30000,30000,5.3425E-07
0.37,PC,E-Glass,1200,1354.23,0.37,77.5862,0.232567,273,2540,75000,75000,75000,0.2,0.2,0.22,30000,30000,30000,3.983E-07
0.37,PC,E-Glass,1200,1655.17,0.37,67.2414,0.544621,298,2540,75000,75000,75000,0.2,0.2,0.22,30000,30000,30000,2.93275E-07
0.37,PC,E-Glass,1200,1396.55,0.37,62.069,0.346699,333,2540,75000,75000,75000,0.2,0.2,0.22,30000,30000,30000,3.072E-07
0.37,PC,E-Glass,1200,1075.86,0.37,46.5517,0.285244,393,2540,75000,75000,75000,0.2,0.2,0.22,30000,30000,30000,3.00263E-07
0.37,PC,Kevlar,1200,1186.21,0.37,89.6552,0.229998,233,1470,150000,4200,4200,0.35,0.35,0.35,2900,2900,1500,5.55788E-07
0.37,PC,Kevlar,1200,1354.23,0.37,77.5862,0.232567,273,1470,150000,4200,4200,0.35,0.35,0.35,2900,2900,1500,4.1518E-07
0.37,PC,Kevlar,1200,1655.17,0.37,67.2414,0.544621,298,1470,150000,4200,4200,0.35,0.35,0.35,2900,2900,1500,4.15175E-07
0.37,PC,Kevlar,1200,1396.55,0.37,62.069,0.346699,333,1470,150000,4200,4200,0.35,0.35,0.35,2900,2900,1500,3.20675E-07
0.37,PC,Kevlar,1200,1075.86,0.37,46.5517,0.285244,393,1470,150000,4200,4200,0.35,0.35,0.35,2900,2900,1500,3.11438E-07
0.37,PC,S-Glass,1200,1186.21,0.37,89.6552,0.229998,233,2530,85000,85000,85000,0.35,0.35,0.35,36000,36000,36000,5.33763E-07
0.37,PC,S-Glass,1200,1354.23,0.37,77.5862,0.232567,273,2530,85000,85000,85000,0.35,0.35,0.35,36000,36000,36000,3.979E-07
0.37,PC,S-Glass,1200,1655.17,0.37,67.2414,0.544621,298,2530,85000,85000,85000,0.35,0.35,0.35,36000,36000,36000,2.92925E-07
0.37,PC,S-Glass,1200,1396.55,0.37,62.069,0.346699,333,2530,85000,85000,85000,0.35,0.35,0.35,36000,36000,36000,3.0715E-07
0.37,PC,S-Glass,1200,1075.86,0.37,46.5517,0.285244,393,2530,85000,85000,85000,0.35,0.35,0.35,36000,36000,36000,3.00038E-07
0.36,PMMA,Carbon,1180,2658.67,0.36,252.049,0.545588,233,1770,220000,14000,14000,0.2,0.2,0.25,9000,9000,4600,6.83288E-07
0.36,PMMA,Carbon,1180,2742.62,0.36,149.59,0.431152,273,1770,220000,14000,14000,0.2,0.2,0.25,9000,9000,4600,4.04538E-07
0.36,PMMA,Carbon,1180,2448.77,0.36,106.557,0.444529,298,1770,220000,14000,14000,0.2,0.2,0.25,9000,9000,4600,3.3685E-07
0.36,PMMA,Carbon,1180,1652.92,0.36,79.918,0.346129,333,1770,220000,14000,14000,0.2,0.2,0.25,9000,9000,4600,3.8955E-07
0.36,PMMA,Carbon,1180,1567.21,0.36,43.0328,0.277231,393,1770,220000,14000,14000,0.2,0.2,0.25,9000,9000,4600,2.0915E-07
0.36,PMMA,E-Glass,1180,2658.67,0.36,252.049,0.545588,233,2540,75000,75000,75000,0.2,0.2,0.22,30000,30000,30000,6.85925E-07
0.36,PMMA,E-Glass,1180,2742.62,0.36,149.59,0.431152,273,2540,75000,75000,75000,0.2,0.2,0.22,30000,30000,30000,4.06263E-07
0.36,PMMA,E-Glass,1180,2448.77,0.36,106.557,0.444529,298,2540,75000,75000,75000,0.2,0.2,0.22,30000,30000,30000,3.37363E-07
0.36,PMMA,E-Glass,1180,1652.92,0.36,79.918,0.346129,333,2540,75000,75000,75000,0.2,0.2,0.22,30000,30000,30000,3.895E-07
0.36,PMMA,E-Glass,1180,1567.21,0.36,43.0328,0.277231,393,2540,75000,75000,75000,0.2,0.2,0.22,30000,30000,30000,2.09113E-07
0.36,PMMA,Kevlar,1180,2658.67,0.36,252.049,0.545588,233,1470,150000,4200,4200,0.35,0.35,0.35,2900,2900,1500,7.20138E-07
0.36,PMMA,Kevlar,1180,2742.62,0.36,149.59,0.431152,273,1470,150000,4200,4200,0.35,0.35,0.35,2900,2900,1500,4.26275E-07
0.36,PMMA,Kevlar,1180,2448.77,0.36,106.557,0.444529,298,1470,150000,4200,4200,0.35,0.35,0.35,2900,2900,1500,3.5445E-07
0.36,PMMA,Kevlar,1180,1652.92,0.36,79.918,0.346129,333,1470,150000,4200,4200,0.35,0.35,0.35,2900,2900,1500,4.07138E-07
0.36,PMMA,Kevlar,1180,1567.21,0.36,43.0328,0.277231,393,1470,150000,4200,4200,0.35,0.35,0.35,2900,2900,1500,2.1815E-07
0.36,PMMA,S-Glass,1180,2658.67,0.36,252.049,0.545588,233,2530,85000,85000,85000,0.35,0.35,0.35,36000,36000,36000,6.85038E-07
0.36,PMMA,S-Glass,1180,2742.62,0.36,149.59,0.431152,273,2530,85000,85000,85000,0.35,0.35,0.35,36000,36000,36000,4.04913E-07
0.36,PMMA,S-Glass,1180,2448.77,0.36,106.557,0.444529,298,2530,85000,85000,85000,0.35,0.35,0.35,36000,36000,36000,3.36775E-07
0.36,PMMA,S-Glass,1180,1652.92,0.36,79.918,0.346129,333,2530,85000,85000,85000,0.35,0.35,0.35,36000,36000,36000,3.8905E-07
0.36,PMMA,S-Glass,1180,1567.21,0.36,43.0328,0.277231,393,2530,85000,85000,85000,0.35,0.35,0.35,36000,36000,36000,2.08888E-07